{
  "fluency-spam": {
    "1qmxoH7jT7VECeLUVEKU": {
      "subject_id": 10255,
      "data": [
        {
          "trial_type": "call-function",
          "trial_index": 0,
          "time_elapsed": 2,
          "internal_node_id": "0.0-0.0",
          "subject": 10255
        },
        {
          "rt": 5128,
          "stimulus": "\n                    <p style=\"font-size:20px;\"> इस प्रयोग में भाग लेने के लिए धन्यवाद!</p>\n                    <p style=\"font-size:20px;\"> ‎</p>\n                    <p style=\"font-size:22px;\"> <strong>इस प्रयोग में दो चरण हैं:</strong></p>\n                    <p style=\"font-size:18px;\"> <u>प्रथम चरण में,</u>, आपको एक कैटेगरी का नाम दिखाया जाएगा।\n                    <p style=\"font-size:18px;\"> आपको निर्धारित समय सीमा के भीतर उस कैटेगरी से संबंधित जितने संभव हो सकें, उतने शब्द टाइप करने होंगे। </p>\n                    <p style=\"font-size:18px;\"> <u>दूसरे चरण में</u>, आप पहले टाइप किए गए हर शब्द को ऐसे संगठित करे </p>\n                    <p style=\"font-size:18px;\"> जिससे समान अर्थ वाले शब्द एक-दुसरे के ज्यादा करीब हो।</p>\n                    <p style=\"font-size:18px;\"> इस एक्सपेरिमेंट में सिर्फ़ 3 \"ट्रायल\" होंगे, इसलिए कृपया जितना हो सके उतना सटीकता बनाए रखें।\n                    <p style=\"font-size:18px;\"> टाइप करते समय अथवा वस्तुओं को संगठित करते समय,शीघ्रता की आवश्यकता नहीं है,सटीकता सबसे महत्वपूर्ण है।</p>\n                    <p style=\"font-size:20px;\"> ‎</p>\n                    <p style=\"font-size:18px;\"> शुरू करने से पहले, हम आपको एक्सपेरिमेंट लेआउट से परिचित कराना चाहते हैं। हम आपको इसके बारे में बताएंगे।</p>\n                    <p style=\"font-size:18px;\"> मुख्य कार्य आरंभ करने से पहले, आपको एक अभ्यास सत्र दिया जाएगा, जिसमें विस्तृत निर्देश दिये गये है|</p>\n                    <p style=\"font-size:18px;\"> जब आप शुरू करने के लिए तैयार हों, <strong>\"कंटिन्यू\" दबाएँ।</strong></p>\n                ",
          "response": 0,
          "typeoftrial": "instructions",
          "subject": 10255,
          "trial_type": "html-button-response",
          "trial_index": 2,
          "time_elapsed": 253030,
          "internal_node_id": "0.0-2.0"
        },
        {
          "rt": 8956,
          "stimulus": "\n                    <p style=\"font-size:22px;\"><strong>आप अभी एक वर्बल फ्लुएंसी टास्क करने वाले हैं।</strong></p>\n                    <p style=\"font-size:17px;\"> इस टास्क में आपको एक कैटेगरी का नाम दिखाया जाएगा (जैसे, फर्नीचर)।</p>\n                    <p style=\"font-size:17px;\"> आपका काम है 3 मिनट में उस कैटेगरी से जुड़ी जितनी ज़्यादा चीज़ें आप सोच सकते हैं, उन्हें टाइप करना।</p>\n                    <p style=\"font-size:17px;\"> आपको यह काम तीन अलग-अलग डोमेन पर तीन बार करना होगा।</p> \n                    <p style=\"font-size:17px;\"> हर शब्द टाइप करने के बाद, अगला शब्द टाइप करने के लिए <strong>ENTER</strong> दबाएँ।</p>\n                    <p style=\"font-size:17px;\"> जब टाइमर खत्म हो जाएगा, तो आप अपने आप अगले टास्क पर चले जाएंगे।</p>\n                    <p style=\"font-size:17px;\"> जब आप तैयार हों, तो प्रैक्टिस करने के लिए <strong>शुरू दबाएँ!</strong></p>\n                    <p style=\"font-size:17px;\"> प्रैक्टिस ट्रायल के लिए आपको 1 मिनट दिया जाएगा, लेकिन याद रखें कि असली टास्क के लिए आपको 3 मिनट दिए जाएंगे।</p> \n                ",
          "response": 0,
          "typeoftrial": "instructions",
          "subject": 10255,
          "trial_type": "html-button-response",
          "trial_index": 3,
          "time_elapsed": 261988,
          "internal_node_id": "0.0-3.0"
        },
        {
          "rt": null,
          "stimulus": "\n                        <div id = \"timer-box\"></div>\n                        <div id = \"response-input-box\">\n                        <p style = \"font-size:30px;\">आप <strong>फर्नीचर</strong> से जुड़ी जितनी ज़्यादा चीज़ों के नाम बता सकते हैं, बताएं।</p>\n                        <div id = \"responses\">\n                            <input type = \"text\" class = \"furniture-practice-response active\" autofocus />\n                        </div>\n                        <p id = \"below-input-text\" style = \"font-size: 14px; margin-top: 10px; color: gray; text-align: left;\"> हर शब्द के बाद <strong>enter</strong> दबाएँ!</p>\n                        </div>\n                        <style>\n                        #responses {\n                            position: relative;\n                            width: 300px;\n                            height: 40px; \n                        }\n\n                        .furniture-practice-response {\n                            position: absolute;\n                            top: 0;\n                            left: 0;\n                            width: 100%;\n                            font-size: 20px;\n                            padding: 5px;\n                            box-sizing: border-box;\n                            opacity: 0.5;\n                        } \n\n                        .furniture-practice-response.active {\n                            opacity: 1;\n                            z-index: 999;\n                        }\n                        </style>\n                    ",
          "response": null,
          "task": "VFT",
          "domain": "furniture-practice",
          "subject": 10255,
          "trial_type": "html-keyboard-response",
          "trial_index": 4,
          "time_elapsed": 322004,
          "internal_node_id": "0.0-4.0-0.0",
          "tagged_responses": "[{\"response\":\"chair\",\"tag\":1},{\"response\":\"sofa\",\"tag\":2},{\"response\":\"bench\",\"tag\":3},{\"response\":\"lights\",\"tag\":4},{\"response\":\"dinig table\",\"tag\":5},{\"response\":\"wadrobe\",\"tag\":6},{\"response\":\"mirror\",\"tag\":7},{\"response\":\"bed\",\"tag\":8},{\"response\":\"Tv stand\",\"tag\":9}]",
          "response_times": "[9613.2,1365.9,1445.4,3981.5,2808.5,8129.8,3742.8,5691.1,11889.2]"
        },
        {
          "rt": 7892,
          "stimulus": "\n                    <p style=\"font-size:22px;\"> <strong>अब, आप एक स्पेशियल अरेंजमेंट टास्क शुरू करेंगे।</strong></p>\n                    <p style=\"font-size:17px;\"> इस टास्क में, आपको उन शब्दों का सेट दिखाया जाएगा जो आपने पिछले वर्बल फ्लुएंसी टास्क में टाइप किए थे।</p>\n                    <p style=\"font-size:17px;\"> हमें यह जानना है कि आपके अनुसार ये शब्द एक-दूसरे से कितने मिलते-जुलते हैं। आपका काम है हर शब्द को इस तरह मूव करना</p>\n                    <p style=\"font-size:17px;\"> कि समान शब्द एक-दूसरे के करीब आ जाएं। यानी, आपको उन्हें स्पेस में इस तरह रखना चाहिए</p>\n                    <p style=\"font-size:17px;\"> कि हर जोड़ी के बीच की दूरी यह दर्शाए कि वे एक-दूसरे से कितने समान हैं।</p>\n                    <p style=\"font-size:17px;\"> (स्पेस में पास होने का मतलब है ज़्यादा समानता, और दूर होने का मतलब है ज़्यादा असमानता)</p>\n                    <p style=\"font-size:17px;\"> शब्द एक बॉक्स के ऊपरी बाएँ कोने में एक-एक करके दिखाई देंगे। आप बस उन्हें</p>\n                    <p style=\"font-size:17px;\"> क्लिक और ड्रैग करके हिला सकते हैं। यदि शब्द समान लगते हैं, तो उन्हें पास-पास रखें।</p>\n                    <p style=\"font-size:17px;\"> यदि वे अलग लगते हैं, तो उन्हें एक-दूसरे से दूर रखें। आप यह प्रक्रिया तीन अलग-अलग डोमेन पर</p> \n                    <p style=\"font-size:17px;\"> तीन बार करेंगे, जो उन शब्दों पर आधारित होगी जो आपने संबंधित वर्बल फ्लुएंसी टास्क में टाइप किए थे। </p>\n                    <p style=\"font-size:17px;\"> हर शब्द को ड्रैग करने के बाद, अगला शब्द आएगा। आप पहले से रखे गए शब्दों को फिर से व्यवस्थित कर सकते हैं।</p>\n                    <p style=\"font-size:17px;\"> ध्यान दें, ट्रायल पूरा करने के लिए, <u>सभी आइटम्स</u> को \"एक्टिव एरीना\" (बीच वाले बड़े बॉक्स) में ले जाना ज़रूरी है। </p>\n                    <p style=\"font-size:17px;\"> जब आप व्यवस्थित कर लें, तो स्क्रीन के नीचे दिए गए छोटे कंटिन्यू बटन पर क्लिक करें।</p>\n                    <p style=\"font-size:5px;\"> ‎</p>\n                    <p style=\"font-size:17px;\"> चलिए अपना प्रैक्टिस राउंड जारी रखते हैं!</p>\n                    <p style=\"font-size:17px;\"> जब आप तैयार हों, तो <strong>शुरू दबाएँ।</strong></p>\n                ",
          "response": 0,
          "typeoftrial": "instructions",
          "subject": 10255,
          "trial_type": "html-button-response",
          "trial_index": 5,
          "time_elapsed": 329899,
          "internal_node_id": "0.0-5.0"
        },
        {
          "rt": 44775,
          "stimulus": "\n                            <p style=\"font-size:20px;\">हर शब्द को नीचे दिए गए ड्रॉप बॉक्स में इस आधार पर व्यवस्थित करें कि वे एक-दूसरे से कितने संबंधित हैं।</p> \n                            <p style=\"font-size:18px;\"><strong>हर शब्द</strong> को मूव करने के बाद एक नया शब्द दिखाई देगा।</p>\n                            <p style=\"font-size:17px;\"> जब आप स्पेस व्यवस्थित कर लें, तो स्क्रीन के नीचे दिए गए छोटे कंटिन्यू बटन पर क्लिक करें।</p>\n                            <div id=\"word-drop-area\" style=\"\n                                margin: 40px auto;\n                                width: 80vw;\n                                max-width: 1400px;\n                                height: 55vh;\n                                min-height: 500px;\n                                max-height: 750px;\n                                border: 2px solid #aaa;\n                                padding: 20px;\n                                position: relative;\n                            \"></div>\n\n\n                            <p style=\"font-size:14px; color: gray;\">याद रखें, ज़रूरत पड़ने पर पहले रखे गए शब्दों को फिर से व्यवस्थित किया जा सकता है!</p>\n                            <style>       \n                                .draggable {\n                                    display: inline-block;\n                                    background: #eef;\n                                    padding: 4px 8px;\n                                    border: 1px solid #aaa;\n                                    border-radius: 4px;\n                                    cursor: grab;\n                                    font-size: 14px;\n                                    line-height: 1.2;\n                                    margin-bottom: 4px;\n                                }\n\n                            </style>    \n                        ",
          "response": 0,
          "task": "SpAM",
          "domain": "furniture-practice",
          "subject": 10255,
          "trial_type": "html-button-response",
          "trial_index": 6,
          "time_elapsed": 374677,
          "internal_node_id": "0.0-6.0",
          "droppedwords": [
            {
              "word": "chair",
              "id": "word-1",
              "x_px": 702.2000350952148,
              "y_px": 518.8000030517578,
              "x_norm": 0.5746023915267957,
              "y_norm": 1.0038699504925308,
              "canvas_width": 1272,
              "canvas_height": 543.2000122070312
            },
            {
              "word": "sofa",
              "id": "word-2",
              "x_px": 611.2000350952148,
              "y_px": 515.2000274658203,
              "x_norm": 0.4982016690368046,
              "y_norm": 0.9969040536305972,
              "canvas_width": 1272,
              "canvas_height": 543.2000122070312
            },
            {
              "word": "bench",
              "id": "word-3",
              "x_px": 424.20003509521484,
              "y_px": 511.2000274658203,
              "x_norm": 0.34939824015560983,
              "y_norm": 0.9891641157386356,
              "canvas_width": 1272,
              "canvas_height": 543.2000122070312
            },
            {
              "word": "lights",
              "id": "word-4",
              "x_px": 1198.1999740600586,
              "y_px": 337.2000274658203,
              "x_norm": 0.9825539478540495,
              "y_norm": 0.6524768174383035,
              "canvas_width": 1272,
              "canvas_height": 543.2000122070312
            },
            {
              "word": "dinig table",
              "id": "word-5",
              "x_px": 800.2000350952148,
              "y_px": 518.8000030517578,
              "x_norm": 0.6745911626655738,
              "y_norm": 1.0038699504925308,
              "canvas_width": 1272,
              "canvas_height": 543.2000122070312
            },
            {
              "word": "chair",
              "id": "word-1",
              "x_px": 808.8000106811523,
              "y_px": 480.3999786376953,
              "x_norm": 0.6618319526874872,
              "y_norm": 0.9295664994888672,
              "canvas_width": 1272,
              "canvas_height": 543.2000122070312
            },
            {
              "word": "wadrobe",
              "id": "word-6",
              "x_px": 243.20000457763672,
              "y_px": 439.2000274658203,
              "x_norm": 0.20323827813862883,
              "y_norm": 0.8498452336833258,
              "canvas_width": 1272,
              "canvas_height": 543.2000122070312
            },
            {
              "word": "mirror",
              "id": "word-7",
              "x_px": 250.20000457763672,
              "y_px": 411.2000274658203,
              "x_norm": 0.20638243404867698,
              "y_norm": 0.7956656684395942,
              "canvas_width": 1272,
              "canvas_height": 543.2000122070312
            },
            {
              "word": "bed",
              "id": "word-8",
              "x_px": 255.20000457763672,
              "y_px": 518.8000030517578,
              "x_norm": 0.20758093789877322,
              "y_norm": 1.0038699504925308,
              "canvas_width": 1272,
              "canvas_height": 543.2000122070312
            },
            {
              "word": "Tv stand",
              "id": "word-9",
              "x_px": 600.2000350952148,
              "y_px": 460.2000274658203,
              "x_norm": 0.5003908286684069,
              "y_norm": 0.8904799076161245,
              "canvas_width": 1272,
              "canvas_height": 543.2000122070312
            }
          ],
          "viewport_width": 1536,
          "viewport_height": 776,
          "device_pixel_ratio": 1.25
        },
        {
          "rt": 2700,
          "stimulus": "\n                    <p style=\"font-size:20px;\">आपने प्रैक्टिस राउंड पूरा कर लिया है!</p>\n                    <p style=\"font-size:18px;\"> अब आप असली टास्क शुरू करेंगे, जिसमें अलग-अलग कैटेगरी के तीन राउंड होंगे।</p>\n                    <p style=\"font-size:18px;\"> फिर से, आपका पहला काम समय सीमा के भीतर दी गई कैटेगरी से जुड़े ज़्यादा से ज़्यादा शब्द टाइप करना है।</p>\n                    <p style=\"font-size:18px;\"> उसके बाद, आपको उन टाइप किए गए शब्दों को दिए गए बॉक्स में इस आधार पर व्यवस्थित करना होगा कि वे एक-दूसरे से कितने संबंधित हैं।</p>\n                    <p style=\"font-size:10px;\"> ‎</p>\n                    <p style=\"font-size:18px;\"> जब आप तैयार हों, तो वर्बल फ्लुएंसी टास्क शुरू करने के लिए <strong>शुरू दबाएँ</strong>।</p>\n                ",
          "response": 0,
          "typeoftrial": "instructions",
          "subject": 10255,
          "trial_type": "html-button-response",
          "trial_index": 7,
          "time_elapsed": 377378,
          "internal_node_id": "0.0-7.0"
        },
        {
          "rt": null,
          "stimulus": "\n                        <div id = \"timer-box\"></div>\n                        <div id = \"response-input-box\">\n                        <p style = \"font-size:30px;\">आप <strong>रंगों</strong> के जितने ज़्यादा नाम बता सकते हैं, बताएं।</p>\n                        <div id = \"responses\">\n                            <input type = \"text\" class = \"colours-response active\" autofocus />\n                        </div>\n                        <p id = \"below-input-text\" style = \"font-size: 14px; margin-top: 10px; color: gray; text-align: left;\"> हर शब्द के बाद <strong>enter</strong> दबाएँ!</p>\n                        </div>\n                        <style>\n                        #responses {\n                            position: relative;\n                            width: 300px;\n                            height: 40px; \n                        }\n\n                        .colours-response {\n                            position: absolute;\n                            top: 0;\n                            left: 0;\n                            width: 100%;\n                            font-size: 20px;\n                            padding: 5px;\n                            box-sizing: border-box;\n                            opacity: 0.5;\n                        } \n\n                        .colours-response.active {\n                            opacity: 1;\n                            z-index: 999;\n                        }\n                        </style>\n                    ",
          "response": null,
          "task": "VFT",
          "domain": "colours",
          "subject": 10255,
          "trial_type": "html-keyboard-response",
          "trial_index": 8,
          "time_elapsed": 437381,
          "internal_node_id": "0.0-8.0-0.0",
          "tagged_responses": "[{\"response\":\"red\",\"tag\":1},{\"response\":\"blue\",\"tag\":2},{\"response\":\"green\",\"tag\":3},{\"response\":\"indigo\",\"tag\":4},{\"response\":\"orange\",\"tag\":5},{\"response\":\"purple\",\"tag\":6},{\"response\":\"white\",\"tag\":7},{\"response\":\"black\",\"tag\":8},{\"response\":\"pink\",\"tag\":9},{\"response\":\"saffron\",\"tag\":10},{\"response\":\"violet\",\"tag\":11},{\"response\":\"silver\",\"tag\":12},{\"response\":\"gray\",\"tag\":13},{\"response\":\"brown\",\"tag\":14}]",
          "response_times": "[2558.3,1464.6,1505.6,1894.6,1583.3,2164.2,8238.4,1646.3,3509.2,2492.4,3133.6,4323.4,7860,7736]"
        },
        {
          "rt": 1909,
          "stimulus": "\n                    <p style=\"font-size:20px;\"> <strong>आप स्पेशियल अरेंजमेंट टास्क की ओर बढ़ रहे हैं।</strong></p>\n                    <p style=\"font-size:16px;\"> याद दिलाने के लिए, इस टास्क में आपको शब्दों का एक सेट दिखाया जाएगा।</p>\n                    <p style=\"font-size:16px;\"> हमें यह जानना है कि आपको ये शब्द एक-दूसरे से कितने समान लगते हैं।</p>\n                    <p style=\"font-size:16px;\"> समानता दिखाने के लिए, आपको हर शब्द को इस तरह मूव करना होगा</p> \n                    <p style=\"font-size:16px;\"> कि समान शब्द एक-दूसरे के करीब आ जाएं।</p>\n                    <p style=\"font-size:16px;\"> यदि शब्द समान लगते हैं, तो उन्हें पास-पास रखें; यदि वे अलग लगते हैं,</p>\n                    <p style=\"font-size:16px;\"> तो उन्हें एक-दूसरे से दूर रखें।</p>\n                    <p style=\"font-size:10px;\"> ‎</p>\n                    <p style=\"font-size:18px;\"> शुरू करने के लिए <strong>शुरू</strong> दबाएँ।</p>\n                ",
          "response": 0,
          "typeoftrial": "instructions",
          "subject": 10255,
          "trial_type": "html-button-response",
          "trial_index": 9,
          "time_elapsed": 439292,
          "internal_node_id": "0.0-9.0"
        },
        {
          "rt": 58747,
          "stimulus": "\n                            <p style=\"font-size:20px;\">हर शब्द को नीचे दिए गए ड्रॉप बॉक्स में इस आधार पर व्यवस्थित करें कि वे एक-दूसरे से कितने संबंधित हैं।</p> \n                            <p style=\"font-size:18px;\"><strong>हर शब्द</strong> को मूव करने के बाद एक नया शब्द दिखाई देगा।</p>\n                            <p style=\"font-size:17px;\"> जब आप स्पेस व्यवस्थित कर लें, तो स्क्रीन के नीचे दिए गए छोटे कंटिन्यू बटन पर क्लिक करें।</p>\n                            <div id=\"word-drop-area\" style=\"\n                                margin: 40px auto;\n                                width: 80vw;\n                                max-width: 1400px;\n                                height: 55vh;\n                                min-height: 500px;\n                                max-height: 750px;\n                                border: 2px solid #aaa;\n                                padding: 20px;\n                                position: relative;\n                            \"></div>\n\n\n                            <p style=\"font-size:14px; color: gray;\">याद रखें, ज़रूरत पड़ने पर पहले रखे गए शब्दों को फिर से व्यवस्थित किया जा सकता है!</p>\n                            <style>       \n                                .draggable {\n                                    display: inline-block;\n                                    background: #eef;\n                                    padding: 4px 8px;\n                                    border: 1px solid #aaa;\n                                    border-radius: 4px;\n                                    cursor: grab;\n                                    font-size: 14px;\n                                    line-height: 1.2;\n                                    margin-bottom: 4px;\n                                }\n\n                            </style>    \n                        ",
          "response": 0,
          "task": "SpAM",
          "domain": "colours",
          "subject": 10255,
          "trial_type": "html-button-response",
          "trial_index": 10,
          "time_elapsed": 498041,
          "internal_node_id": "0.0-10.0",
          "droppedwords": [
            {
              "word": "red",
              "id": "word-1",
              "x_px": 94.20000457763672,
              "y_px": 518.8000030517578,
              "x_norm": 0.07644553019081901,
              "y_norm": 1.0038699504925308,
              "canvas_width": 1272,
              "canvas_height": 543.2000122070312
            },
            {
              "word": "blue",
              "id": "word-2",
              "x_px": 99.20000457763672,
              "y_px": 279.1999969482422,
              "x_norm": 0.08092344471274307,
              "y_norm": 0.5402476589538197,
              "canvas_width": 1272,
              "canvas_height": 543.2000122070312
            },
            {
              "word": "green",
              "id": "word-3",
              "x_px": 91.20000457763672,
              "y_px": 50.1875,
              "x_norm": 0.07495300399252287,
              "y_norm": 0.09711203323820641,
              "canvas_width": 1272,
              "canvas_height": 543.2000122070312
            },
            {
              "word": "indigo",
              "id": "word-4",
              "x_px": 152.20000457763672,
              "y_px": 276.1999969482422,
              "x_norm": 0.12535519076271628,
              "y_norm": 0.5344427055348484,
              "canvas_width": 1272,
              "canvas_height": 543.2000122070312
            },
            {
              "word": "orange",
              "id": "word-5",
              "x_px": 144.20000457763672,
              "y_px": 518.8000030517578,
              "x_norm": 0.11932888236231246,
              "y_norm": 1.0038699504925308,
              "canvas_width": 1272,
              "canvas_height": 543.2000122070312
            },
            {
              "word": "purple",
              "id": "word-6",
              "x_px": 118.20000457763672,
              "y_px": 475.2000274658203,
              "x_norm": 0.09755997282652502,
              "y_norm": 0.9195046747109806,
              "canvas_width": 1272,
              "canvas_height": 543.2000122070312
            },
            {
              "word": "white",
              "id": "word-7",
              "x_px": 698.2000350952148,
              "y_px": 1.5999908447265625,
              "x_norm": 0.5729643515237698,
              "y_norm": 0.003095957441472715,
              "canvas_width": 1272,
              "canvas_height": 543.2000122070312
            },
            {
              "word": "black",
              "id": "word-8",
              "x_px": 1221.599998474121,
              "y_px": 518.8000030517578,
              "x_norm": 1.000942273514247,
              "y_norm": 1.0038699504925308,
              "canvas_width": 1272,
              "canvas_height": 543.2000122070312
            },
            {
              "word": "white",
              "id": "word-7",
              "x_px": 1220.599998474121,
              "y_px": 1.5999908447265625,
              "x_norm": 1.0016617751963677,
              "y_norm": 0.003095957441472715,
              "canvas_width": 1272,
              "canvas_height": 543.2000122070312
            },
            {
              "word": "pink",
              "id": "word-9",
              "x_px": 217.20000457763672,
              "y_px": 483.2000274658203,
              "x_norm": 0.17711094291832394,
              "y_norm": 0.934984550494904,
              "canvas_width": 1272,
              "canvas_height": 543.2000122070312
            },
            {
              "word": "saffron",
              "id": "word-10",
              "x_px": 23.18750762939453,
              "y_px": 479.2000274658203,
              "x_norm": 0.019198333861452338,
              "y_norm": 0.9272446126029423,
              "canvas_width": 1272,
              "canvas_height": 543.2000122070312
            },
            {
              "word": "violet",
              "id": "word-11",
              "x_px": 232.20000457763672,
              "y_px": 273.1999969482422,
              "x_norm": 0.19047424113007883,
              "y_norm": 0.5286377521158772,
              "canvas_width": 1272,
              "canvas_height": 543.2000122070312
            },
            {
              "word": "silver",
              "id": "word-12",
              "x_px": 1137.1999740600586,
              "y_px": 15.1875,
              "x_norm": 0.9320738260753992,
              "y_norm": 0.029387576683541916,
              "canvas_width": 1272,
              "canvas_height": 543.2000122070312
            },
            {
              "word": "gray",
              "id": "word-13",
              "x_px": 1047.1999740600586,
              "y_px": 25.1875,
              "x_norm": 0.8539682991291814,
              "y_norm": 0.04873742141344606,
              "canvas_width": 1272,
              "canvas_height": 543.2000122070312
            },
            {
              "word": "brown",
              "id": "word-14",
              "x_px": 1097.1999740600586,
              "y_px": 515.2000274658203,
              "x_norm": 0.9050938123819827,
              "y_norm": 0.9969040536305972,
              "canvas_width": 1272,
              "canvas_height": 543.2000122070312
            }
          ],
          "viewport_width": 1536,
          "viewport_height": 776,
          "device_pixel_ratio": 1.25
        },
        {
          "rt": 13323,
          "stimulus": "\n                    <p style=\"font-size:18px;\"> <strong>अब आप अगली कैटेगरी पर जाएंगे।</strong></p>\n                    <p style=\"font-size:16px;\"> याद दिलाने के लिए, इस टास्क में आपको बड़े अक्षरों में दी गई कैटेगरी</p> \n                    <p style=\"font-size:16px;\"> से जुड़े जितने भी शब्द याद आएं, उन सभी को टाइप करना है।</p>\n                    <p style=\"font-size:18px;\"> शुरू करने के लिए <strong>शुरू</strong> दबाएँ।</p>\n                ",
          "response": 0,
          "typeoftrial": "instructions",
          "subject": 10255,
          "trial_type": "html-button-response",
          "trial_index": 11,
          "time_elapsed": 511366,
          "internal_node_id": "0.0-11.0"
        },
        {
          "rt": null,
          "stimulus": "\n                        <div id = \"timer-box\"></div>\n                        <div id = \"response-input-box\">\n                        <p style = \"font-size:30px;\">आप <strong>जानवरों</strong> के जितने ज़्यादा नाम बता सकते हैं, बताएं।</p>\n                        <div id = \"responses\">\n                            <input type = \"text\" class = \"animals-response active\" autofocus />\n                        </div>\n                        <p id = \"below-input-text\" style = \"font-size: 14px; margin-top: 10px; color: gray; text-align: left;\"> हर शब्द के बाद <strong>enter</strong> दबाएँ!</p>\n                        </div>\n                        <style>\n                        #responses {\n                            position: relative;\n                            width: 300px;\n                            height: 40px; \n                        }\n\n                        .animals-response {\n                            position: absolute;\n                            top: 0;\n                            left: 0;\n                            width: 100%;\n                            font-size: 20px;\n                            padding: 5px;\n                            box-sizing: border-box;\n                            opacity: 0.5;\n                        } \n\n                        .animals-response.active {\n                            opacity: 1;\n                            z-index: 999;\n                        }\n                        </style>\n                    ",
          "response": null,
          "task": "VFT",
          "domain": "animals",
          "subject": 10255,
          "trial_type": "html-keyboard-response",
          "trial_index": 12,
          "time_elapsed": 571373,
          "internal_node_id": "0.0-12.0-0.0",
          "tagged_responses": "[{\"response\":\"lion\",\"tag\":1},{\"response\":\"tiger\",\"tag\":2},{\"response\":\"girrafe\",\"tag\":3},{\"response\":\"leapord\",\"tag\":4},{\"response\":\"dolhin\",\"tag\":5},{\"response\":\"whale\",\"tag\":6},{\"response\":\"shark\",\"tag\":7},{\"response\":\"crcocdile\",\"tag\":8},{\"response\":\"saprrow\",\"tag\":9},{\"response\":\"crow\",\"tag\":10},{\"response\":\"parrot\",\"tag\":11},{\"response\":\"peigien\",\"tag\":12},{\"response\":\"owl\",\"tag\":13},{\"response\":\"eagle\",\"tag\":14},{\"response\":\"cow\",\"tag\":15},{\"response\":\"buffaloe\",\"tag\":16},{\"response\":\"goat\",\"tag\":17},{\"response\":\"sheep\",\"tag\":18},{\"response\":\"zebra\",\"tag\":19},{\"response\":\"horse\",\"tag\":20},{\"response\":\"ox\",\"tag\":21}]",
          "response_times": "[3114.2,1989.2,2666.4,3306.2,2273.4,1772.4,2051.6,2892.9,2714.4,1414.1,3190.8,2531.8,914.7,1957.4,1012.9,2745.3,1785.4,2561.4,3716.8,2300.9,2156.5]"
        },
        {
          "rt": 2107,
          "stimulus": "\n                    <p style=\"font-size:20px;\"> <strong>आप स्पेशियल अरेंजमेंट टास्क की ओर बढ़ रहे हैं।</strong></p>\n                    <p style=\"font-size:16px;\"> याद दिलाने के लिए, इस टास्क में आपको शब्दों का एक सेट दिखाया जाएगा।</p>\n                    <p style=\"font-size:16px;\"> हमें यह जानना है कि आपको ये शब्द एक-दूसरे से कितने समान लगते हैं।</p>\n                    <p style=\"font-size:16px;\"> समानता दिखाने के लिए, आपको हर शब्द को इस तरह मूव करना होगा</p> \n                    <p style=\"font-size:16px;\"> कि समान शब्द एक-दूसरे के करीब आ जाएं।</p>\n                    <p style=\"font-size:16px;\"> यदि शब्द समान लगते हैं, तो उन्हें पास-पास रखें; यदि वे अलग लगते हैं,</p>\n                    <p style=\"font-size:16px;\"> तो उन्हें एक-दूसरे से दूर रखें।</p>\n                    <p style=\"font-size:10px;\"> ‎</p>\n                    <p style=\"font-size:18px;\"> शुरू करने के लिए <strong>शुरू</strong> दबाएँ।</p>\n                ",
          "response": 0,
          "typeoftrial": "instructions",
          "subject": 10255,
          "trial_type": "html-button-response",
          "trial_index": 13,
          "time_elapsed": 573482,
          "internal_node_id": "0.0-13.0"
        },
        {
          "rt": 114431,
          "stimulus": "\n                            <p style=\"font-size:20px;\">हर शब्द को नीचे दिए गए ड्रॉप बॉक्स में इस आधार पर व्यवस्थित करें कि वे एक-दूसरे से कितने संबंधित हैं।</p> \n                            <p style=\"font-size:18px;\"><strong>हर शब्द</strong> को मूव करने के बाद एक नया शब्द दिखाई देगा।</p>\n                            <p style=\"font-size:17px;\"> जब आप स्पेस व्यवस्थित कर लें, तो स्क्रीन के नीचे दिए गए छोटे कंटिन्यू बटन पर क्लिक करें।</p>\n                            <div id=\"word-drop-area\" style=\"\n                                margin: 40px auto;\n                                width: 80vw;\n                                max-width: 1400px;\n                                height: 55vh;\n                                min-height: 500px;\n                                max-height: 750px;\n                                border: 2px solid #aaa;\n                                padding: 20px;\n                                position: relative;\n                            \"></div>\n\n\n                            <p style=\"font-size:14px; color: gray;\">याद रखें, ज़रूरत पड़ने पर पहले रखे गए शब्दों को फिर से व्यवस्थित किया जा सकता है!</p>\n                            <style>       \n                                .draggable {\n                                    display: inline-block;\n                                    background: #eef;\n                                    padding: 4px 8px;\n                                    border: 1px solid #aaa;\n                                    border-radius: 4px;\n                                    cursor: grab;\n                                    font-size: 14px;\n                                    line-height: 1.2;\n                                    margin-bottom: 4px;\n                                }\n\n                            </style>    \n                        ",
          "response": 0,
          "task": "SpAM",
          "domain": "animals",
          "subject": 10255,
          "trial_type": "html-button-response",
          "trial_index": 14,
          "time_elapsed": 687915,
          "internal_node_id": "0.0-14.0",
          "droppedwords": [
            {
              "word": "lion",
              "id": "word-1",
              "x_px": 32.18750762939453,
              "y_px": 518.8000030517578,
              "x_norm": 0.026162058525288925,
              "y_norm": 1.0038699504925308,
              "canvas_width": 1272,
              "canvas_height": 543.2000122070312
            },
            {
              "word": "tiger",
              "id": "word-2",
              "x_px": 84.20000457763672,
              "y_px": 517.2000274658203,
              "x_norm": 0.06875223645022646,
              "y_norm": 1.000774022576578,
              "canvas_width": 1272,
              "canvas_height": 543.2000122070312
            },
            {
              "word": "girrafe",
              "id": "word-3",
              "x_px": 41.18750762939453,
              "y_px": 361.2000274658203,
              "x_norm": 0.03399816973881582,
              "y_norm": 0.6989164447900734,
              "canvas_width": 1272,
              "canvas_height": 543.2000122070312
            },
            {
              "word": "leapord",
              "id": "word-4",
              "x_px": 147.20000457763672,
              "y_px": 518.8000030517578,
              "x_norm": 0.12226421774222974,
              "y_norm": 1.0038699504925308,
              "canvas_width": 1272,
              "canvas_height": 543.2000122070312
            },
            {
              "word": "dolhin",
              "id": "word-5",
              "x_px": 1214.599998474121,
              "y_px": 1.5999908447265625,
              "x_norm": 1.0011849195815137,
              "y_norm": 0.003095957441472715,
              "canvas_width": 1272,
              "canvas_height": 543.2000122070312
            },
            {
              "word": "whale",
              "id": "word-6",
              "x_px": 1217.599998474121,
              "y_px": 95.18748474121094,
              "x_norm": 1.0014908032878072,
              "y_norm": 0.18418630499725513,
              "canvas_width": 1272,
              "canvas_height": 543.2000122070312
            },
            {
              "word": "whale",
              "id": "word-6",
              "x_px": 1215.1999740600586,
              "y_px": 59.774993896484375,
              "x_norm": 0.9995167540258475,
              "y_norm": 0.11566368506279405,
              "canvas_width": 1272,
              "canvas_height": 543.2000122070312
            },
            {
              "word": "shark",
              "id": "word-7",
              "x_px": 1219.599998474121,
              "y_px": 114.18748474121094,
              "x_norm": 1.0010876040019114,
              "y_norm": 0.22095100998407302,
              "canvas_width": 1272,
              "canvas_height": 543.2000122070312
            },
            {
              "word": "crcocdile",
              "id": "word-8",
              "x_px": 1005.1999740600586,
              "y_px": 174.18748474121094,
              "x_norm": 0.8400204545015492,
              "y_norm": 0.3370500783634979,
              "canvas_width": 1272,
              "canvas_height": 543.2000122070312
            },
            {
              "word": "saprrow",
              "id": "word-9",
              "x_px": 334.2000045776367,
              "y_px": 1.5999908447265625,
              "x_norm": 0.27834633379684925,
              "y_norm": 0.003095957441472715,
              "canvas_width": 1272,
              "canvas_height": 543.2000122070312
            },
            {
              "word": "crow",
              "id": "word-10",
              "x_px": 349.2000045776367,
              "y_px": 45.1875,
              "x_norm": 0.28559745183589036,
              "y_norm": 0.08743711087325434,
              "canvas_width": 1272,
              "canvas_height": 543.2000122070312
            },
            {
              "word": "parrot",
              "id": "word-11",
              "x_px": 342.2000045776367,
              "y_px": 91.18748474121094,
              "x_norm": 0.2820668730741429,
              "y_norm": 0.1764463671052935,
              "canvas_width": 1272,
              "canvas_height": 543.2000122070312
            },
            {
              "word": "peigien",
              "id": "word-12",
              "x_px": 335.2000045776367,
              "y_px": 131.18748474121094,
              "x_norm": 0.2777478601329464,
              "y_norm": 0.25384574602491006,
              "canvas_width": 1272,
              "canvas_height": 543.2000122070312
            },
            {
              "word": "owl",
              "id": "word-13",
              "x_px": 349.2000045776367,
              "y_px": 173.18748474121094,
              "x_norm": 0.2835364967788324,
              "y_norm": 0.3351150938905075,
              "canvas_width": 1272,
              "canvas_height": 543.2000122070312
            },
            {
              "word": "eagle",
              "id": "word-14",
              "x_px": 431.20003509521484,
              "y_px": 2.1875,
              "x_norm": 0.35351509333487585,
              "y_norm": 0.004232778534666531,
              "canvas_width": 1272,
              "canvas_height": 543.2000122070312
            },
            {
              "word": "crow",
              "id": "word-10",
              "x_px": 522.8000106811523,
              "y_px": 1.5999908447265625,
              "x_norm": 0.4275783187657937,
              "y_norm": 0.003095957441472715,
              "canvas_width": 1272,
              "canvas_height": 543.2000122070312
            },
            {
              "word": "parrot",
              "id": "word-11",
              "x_px": 361.80001068115234,
              "y_px": 25.774993896484375,
              "x_norm": 0.29822266606040065,
              "y_norm": 0.049874212981119964,
              "canvas_width": 1272,
              "canvas_height": 543.2000122070312
            },
            {
              "word": "peigien",
              "id": "word-12",
              "x_px": 437.80001068115234,
              "y_px": 25.774993896484375,
              "x_norm": 0.36276257300798287,
              "y_norm": 0.049874212981119964,
              "canvas_width": 1272,
              "canvas_height": 543.2000122070312
            },
            {
              "word": "owl",
              "id": "word-13",
              "x_px": 508.80001068115234,
              "y_px": 40.774993896484375,
              "x_norm": 0.4131253456426939,
              "y_norm": 0.07889898007597618,
              "canvas_width": 1272,
              "canvas_height": 543.2000122070312
            },
            {
              "word": "cow",
              "id": "word-15",
              "x_px": 370.2000045776367,
              "y_px": 244.1999969482422,
              "x_norm": 0.30136457015659035,
              "y_norm": 0.4725232023991552,
              "canvas_width": 1272,
              "canvas_height": 543.2000122070312
            },
            {
              "word": "buffaloe",
              "id": "word-16",
              "x_px": 349.2000045776367,
              "y_px": 199.18748474121094,
              "x_norm": 0.29094545191241994,
              "y_norm": 0.3854246901882582,
              "canvas_width": 1272,
              "canvas_height": 543.2000122070312
            },
            {
              "word": "goat",
              "id": "word-17",
              "x_px": 366.2000045776367,
              "y_px": 280.1999969482422,
              "x_norm": 0.2987924323054486,
              "y_norm": 0.5421826434268101,
              "canvas_width": 1272,
              "canvas_height": 543.2000122070312
            },
            {
              "word": "sheep",
              "id": "word-18",
              "x_px": 361.2000045776367,
              "y_px": 314.1999969482422,
              "x_norm": 0.2973206610127275,
              "y_norm": 0.6079721155084842,
              "canvas_width": 1272,
              "canvas_height": 543.2000122070312
            },
            {
              "word": "zebra",
              "id": "word-19",
              "x_px": 41.18750762939453,
              "y_px": 295.1999969482422,
              "x_norm": 0.033818464329418554,
              "y_norm": 0.5712074105216663,
              "canvas_width": 1272,
              "canvas_height": 543.2000122070312
            },
            {
              "word": "horse",
              "id": "word-20",
              "x_px": 349.2000045776367,
              "y_px": 160.18748474121094,
              "x_norm": 0.28690562150776355,
              "y_norm": 0.3099602957416321,
              "canvas_width": 1272,
              "canvas_height": 543.2000122070312
            },
            {
              "word": "zebra",
              "id": "word-19",
              "x_px": 851.7874984741211,
              "y_px": 308.8000030517578,
              "x_norm": 0.6993903440963122,
              "y_norm": 0.5975232111645439,
              "canvas_width": 1272,
              "canvas_height": 543.2000122070312
            },
            {
              "word": "girrafe",
              "id": "word-3",
              "x_px": 857.7874984741211,
              "y_px": 362.8000030517578,
              "x_norm": 0.7080594736483719,
              "y_norm": 0.7020123727060262,
              "canvas_width": 1272,
              "canvas_height": 543.2000122070312
            },
            {
              "word": "crcocdile",
              "id": "word-8",
              "x_px": 1061.8000717163086,
              "y_px": 162.77500915527344,
              "x_norm": 0.8873197392060616,
              "y_norm": 0.31496711530632665,
              "canvas_width": 1272,
              "canvas_height": 543.2000122070312
            },
            {
              "word": "girrafe",
              "id": "word-3",
              "x_px": 854.3875350952148,
              "y_px": 363.3999786376953,
              "x_norm": 0.7052529787008767,
              "y_norm": 0.7031733161489887,
              "canvas_width": 1272,
              "canvas_height": 543.2000122070312
            },
            {
              "word": "ox",
              "id": "word-21",
              "x_px": 867.2000350952148,
              "y_px": 405.2000274658203,
              "x_norm": 0.7001170925585563,
              "y_norm": 0.7840557616016517,
              "canvas_width": 1272,
              "canvas_height": 543.2000122070312
            },
            {
              "word": "ox",
              "id": "word-21",
              "x_px": 377.80001068115234,
              "y_px": 352.8000030517578,
              "x_norm": 0.3050094953209249,
              "y_norm": 0.6826625279761221,
              "canvas_width": 1272,
              "canvas_height": 543.2000122070312
            },
            {
              "word": "leapord",
              "id": "word-4",
              "x_px": 824.8000106811523,
              "y_px": 518.8000030517578,
              "x_norm": 0.6850782945901784,
              "y_norm": 1.0038699504925308,
              "canvas_width": 1272,
              "canvas_height": 543.2000122070312
            },
            {
              "word": "tiger",
              "id": "word-2",
              "x_px": 787.8000106811523,
              "y_px": 518.8000030517578,
              "x_norm": 0.6432661480427884,
              "y_norm": 1.0038699504925308,
              "canvas_width": 1272,
              "canvas_height": 543.2000122070312
            },
            {
              "word": "lion",
              "id": "word-1",
              "x_px": 753.7874984741211,
              "y_px": 518.8000030517578,
              "x_norm": 0.6126797041191738,
              "y_norm": 1.0038699504925308,
              "canvas_width": 1272,
              "canvas_height": 543.2000122070312
            },
            {
              "word": "girrafe",
              "id": "word-3",
              "x_px": 845.9875106811523,
              "y_px": 367.9875030517578,
              "x_norm": 0.6983191904656382,
              "y_norm": 0.712050104659664,
              "canvas_width": 1272,
              "canvas_height": 543.2000122070312
            },
            {
              "word": "buffaloe",
              "id": "word-16",
              "x_px": 406.80001068115234,
              "y_px": 357.7749786376953,
              "x_norm": 0.33893645874592543,
              "y_norm": 0.6922890284884176,
              "canvas_width": 1272,
              "canvas_height": 543.2000122070312
            },
            {
              "word": "sheep",
              "id": "word-18",
              "x_px": 336.80001068115234,
              "y_px": 354.8000030517578,
              "x_norm": 0.27723588188186254,
              "y_norm": 0.6865324969221029,
              "canvas_width": 1272,
              "canvas_height": 543.2000122070312
            },
            {
              "word": "goat",
              "id": "word-17",
              "x_px": 363.80001068115234,
              "y_px": 316.8000030517578,
              "x_norm": 0.2968342127399522,
              "y_norm": 0.6130030869484672,
              "canvas_width": 1272,
              "canvas_height": 543.2000122070312
            },
            {
              "word": "cow",
              "id": "word-15",
              "x_px": 403.80001068115234,
              "y_px": 316.8000030517578,
              "x_norm": 0.3287169506845092,
              "y_norm": 0.6130030869484672,
              "canvas_width": 1272,
              "canvas_height": 543.2000122070312
            },
            {
              "word": "horse",
              "id": "word-20",
              "x_px": 378.80001068115234,
              "y_px": 276.77500915527344,
              "x_norm": 0.3112252321504795,
              "y_norm": 0.5355553452272338,
              "canvas_width": 1272,
              "canvas_height": 543.2000122070312
            },
            {
              "word": "whale",
              "id": "word-6",
              "x_px": 1217.599998474121,
              "y_px": 35.36248779296875,
              "x_norm": 1.0014908032878072,
              "y_norm": 0.06842586480570759,
              "canvas_width": 1272,
              "canvas_height": 543.2000122070312
            },
            {
              "word": "shark",
              "id": "word-7",
              "x_px": 1219.599998474121,
              "y_px": 69.77500915527344,
              "x_norm": 1.0010876040019114,
              "y_norm": 0.1350135593182181,
              "canvas_width": 1272,
              "canvas_height": 543.2000122070312
            },
            {
              "word": "crcocdile",
              "id": "word-8",
              "x_px": 1063.400047302246,
              "y_px": 110.37498474121094,
              "x_norm": 0.8886567987500069,
              "y_norm": 0.21357388168079705,
              "canvas_width": 1272,
              "canvas_height": 543.2000122070312
            },
            {
              "word": "owl",
              "id": "word-13",
              "x_px": 581.3999862670898,
              "y_px": 1.5999908447265625,
              "x_norm": 0.47207363451446255,
              "y_norm": 0.003095957441472715,
              "canvas_width": 1272,
              "canvas_height": 543.2000122070312
            },
            {
              "word": "crow",
              "id": "word-10",
              "x_px": 522.3999862670898,
              "y_px": 37.1875,
              "x_norm": 0.42725115395528185,
              "y_norm": 0.07195723508933102,
              "canvas_width": 1272,
              "canvas_height": 543.2000122070312
            },
            {
              "word": "owl",
              "id": "word-13",
              "x_px": 507.0000228881836,
              "y_px": 1.5999908447265625,
              "x_norm": 0.41166382723956463,
              "y_norm": 0.003095957441472715,
              "canvas_width": 1272,
              "canvas_height": 543.2000122070312
            },
            {
              "word": "crow",
              "id": "word-10",
              "x_px": 509.0000228881836,
              "y_px": 28.787490844726562,
              "x_norm": 0.41629183165991507,
              "y_norm": 0.055703347800899604,
              "canvas_width": 1272,
              "canvas_height": 543.2000122070312
            }
          ],
          "viewport_width": 1536,
          "viewport_height": 776,
          "device_pixel_ratio": 1.25
        },
        {
          "rt": 6071,
          "stimulus": "\n                    <p style=\"font-size:18px;\"> <strong>अब आप अगली कैटेगरी पर जाएंगे।</strong></p>\n                    <p style=\"font-size:16px;\"> याद दिलाने के लिए, इस टास्क में आपको बड़े अक्षरों में दी गई कैटेगरी</p> \n                    <p style=\"font-size:16px;\"> से जुड़े जितने भी शब्द याद आएं, उन सभी को टाइप करना है।</p>\n                    <p style=\"font-size:18px;\"> शुरू करने के लिए <strong>शुरू</strong> दबाएँ।</p>\n                ",
          "response": 0,
          "typeoftrial": "instructions",
          "subject": 10255,
          "trial_type": "html-button-response",
          "trial_index": 15,
          "time_elapsed": 693988,
          "internal_node_id": "0.0-15.0"
        },
        {
          "rt": null,
          "stimulus": "\n                        <div id = \"timer-box\"></div>\n                        <div id = \"response-input-box\">\n                        <p style = \"font-size:30px;\">आप <strong>खाद्य पदार्थों</strong> के जितने ज़्यादा नाम बता सकते हैं, बताएं।</p>\n                        <div id = \"responses\">\n                            <input type = \"text\" class = \"foods-response active\" autofocus />\n                        </div>\n                        <p id = \"below-input-text\" style = \"font-size: 14px; margin-top: 10px; color: gray; text-align: left;\"> हर शब्द के बाद <strong>enter</strong> दबाएँ!</p>\n                        </div>\n                        <style>\n                        #responses {\n                            position: relative;\n                            width: 300px;\n                            height: 40px; \n                        }\n\n                        .foods-response {\n                            position: absolute;\n                            top: 0;\n                            left: 0;\n                            width: 100%;\n                            font-size: 20px;\n                            padding: 5px;\n                            box-sizing: border-box;\n                            opacity: 0.5;\n                        } \n\n                        .foods-response.active {\n                            opacity: 1;\n                            z-index: 999;\n                        }\n                        </style>\n                    ",
          "response": null,
          "task": "VFT",
          "domain": "foods",
          "subject": 10255,
          "trial_type": "html-keyboard-response",
          "trial_index": 16,
          "time_elapsed": 753992,
          "internal_node_id": "0.0-16.0-0.0",
          "tagged_responses": "[{\"response\":\"lays\",\"tag\":1},{\"response\":\"dal\",\"tag\":2},{\"response\":\"rice\",\"tag\":3},{\"response\":\"dosa\",\"tag\":4},{\"response\":\"idli\",\"tag\":5},{\"response\":\"vada\",\"tag\":6},{\"response\":\"maggi\",\"tag\":7},{\"response\":\"soya bean\",\"tag\":8},{\"response\":\"grapes\",\"tag\":9},{\"response\":\"orange\",\"tag\":10},{\"response\":\"mango\",\"tag\":11},{\"response\":\"tiffins\",\"tag\":12},{\"response\":\"chocolate\",\"tag\":13},{\"response\":\"tea\",\"tag\":14},{\"response\":\"coffe\",\"tag\":15}]",
          "response_times": "[5604.1,1417.6,3596.7,1226.5,1419.3,1037.4,2864.6,5179.7,1655.4,7156,3194.3,14258.7,4997.8,1506.9,2101.8]"
        },
        {
          "rt": 1672,
          "stimulus": "\n                    <p style=\"font-size:20px;\"> <strong>आप स्पेशियल अरेंजमेंट टास्क की ओर बढ़ रहे हैं।</strong></p>\n                    <p style=\"font-size:16px;\"> याद दिलाने के लिए, इस टास्क में आपको शब्दों का एक सेट दिखाया जाएगा।</p>\n                    <p style=\"font-size:16px;\"> हमें यह जानना है कि आपको ये शब्द एक-दूसरे से कितने समान लगते हैं।</p>\n                    <p style=\"font-size:16px;\"> समानता दिखाने के लिए, आपको हर शब्द को इस तरह मूव करना होगा</p> \n                    <p style=\"font-size:16px;\"> कि समान शब्द एक-दूसरे के करीब आ जाएं।</p>\n                    <p style=\"font-size:16px;\"> यदि शब्द समान लगते हैं, तो उन्हें पास-पास रखें; यदि वे अलग लगते हैं,</p>\n                    <p style=\"font-size:16px;\"> तो उन्हें एक-दूसरे से दूर रखें।</p>\n                    <p style=\"font-size:10px;\"> ‎</p>\n                    <p style=\"font-size:18px;\"> शुरू करने के लिए <strong>शुरू</strong> दबाएँ।</p>\n                ",
          "response": 0,
          "typeoftrial": "instructions",
          "subject": 10255,
          "trial_type": "html-button-response",
          "trial_index": 17,
          "time_elapsed": 755667,
          "internal_node_id": "0.0-17.0"
        },
        {
          "rt": 56808,
          "stimulus": "\n                            <p style=\"font-size:20px;\">हर शब्द को नीचे दिए गए ड्रॉप बॉक्स में इस आधार पर व्यवस्थित करें कि वे एक-दूसरे से कितने संबंधित हैं।</p> \n                            <p style=\"font-size:18px;\"><strong>हर शब्द</strong> को मूव करने के बाद एक नया शब्द दिखाई देगा।</p>\n                            <p style=\"font-size:17px;\"> जब आप स्पेस व्यवस्थित कर लें, तो स्क्रीन के नीचे दिए गए छोटे कंटिन्यू बटन पर क्लिक करें।</p>\n                            <div id=\"word-drop-area\" style=\"\n                                margin: 40px auto;\n                                width: 80vw;\n                                max-width: 1400px;\n                                height: 55vh;\n                                min-height: 500px;\n                                max-height: 750px;\n                                border: 2px solid #aaa;\n                                padding: 20px;\n                                position: relative;\n                            \"></div>\n\n\n                            <p style=\"font-size:14px; color: gray;\">याद रखें, ज़रूरत पड़ने पर पहले रखे गए शब्दों को फिर से व्यवस्थित किया जा सकता है!</p>\n                            <style>       \n                                .draggable {\n                                    display: inline-block;\n                                    background: #eef;\n                                    padding: 4px 8px;\n                                    border: 1px solid #aaa;\n                                    border-radius: 4px;\n                                    cursor: grab;\n                                    font-size: 14px;\n                                    line-height: 1.2;\n                                    margin-bottom: 4px;\n                                }\n\n                            </style>    \n                        ",
          "response": 0,
          "task": "SpAM",
          "domain": "foods",
          "subject": 10255,
          "trial_type": "html-button-response",
          "trial_index": 18,
          "time_elapsed": 812476,
          "internal_node_id": "0.0-18.0",
          "droppedwords": [
            {
              "word": "lays",
              "id": "word-1",
              "x_px": 121.20000457763672,
              "y_px": 392.2000274658203,
              "x_norm": 0.09858467935845058,
              "y_norm": 0.7589009634527764,
              "canvas_width": 1272,
              "canvas_height": 543.2000122070312
            },
            {
              "word": "dal",
              "id": "word-2",
              "x_px": 429.20003509521484,
              "y_px": 84.18748474121094,
              "x_norm": 0.3476676297971592,
              "y_norm": 0.1629014757943606,
              "canvas_width": 1272,
              "canvas_height": 543.2000122070312
            },
            {
              "word": "rice",
              "id": "word-3",
              "x_px": 427.20003509521484,
              "y_px": 111.18748474121094,
              "x_norm": 0.34715481366869694,
              "y_norm": 0.21514605656510177,
              "canvas_width": 1272,
              "canvas_height": 543.2000122070312
            },
            {
              "word": "dosa",
              "id": "word-4",
              "x_px": 551.2000350952148,
              "y_px": 153.18748474121094,
              "x_norm": 0.4507134672319782,
              "y_norm": 0.2964154044306992,
              "canvas_width": 1272,
              "canvas_height": 543.2000122070312
            },
            {
              "word": "idli",
              "id": "word-5",
              "x_px": 556.2000350952148,
              "y_px": 131.18748474121094,
              "x_norm": 0.450282366194249,
              "y_norm": 0.25384574602491006,
              "canvas_width": 1272,
              "canvas_height": 543.2000122070312
            },
            {
              "word": "vada",
              "id": "word-6",
              "x_px": 549.2000350952148,
              "y_px": 178.18748474121094,
              "x_norm": 0.4489587673440558,
              "y_norm": 0.3447900162554595,
              "canvas_width": 1272,
              "canvas_height": 543.2000122070312
            },
            {
              "word": "maggi",
              "id": "word-7",
              "x_px": 114.20000457763672,
              "y_px": 366.2000274658203,
              "x_norm": 0.09399854287536519,
              "y_norm": 0.7085913671550256,
              "canvas_width": 1272,
              "canvas_height": 543.2000122070312
            },
            {
              "word": "soya bean",
              "id": "word-8",
              "x_px": 224.20000457763672,
              "y_px": 1.5999908447265625,
              "x_norm": 0.18870862963493867,
              "y_norm": 0.003095957441472715,
              "canvas_width": 1272,
              "canvas_height": 543.2000122070312
            },
            {
              "word": "grapes",
              "id": "word-9",
              "x_px": 392.20003509521484,
              "y_px": 270.1999969482422,
              "x_norm": 0.3240820410847202,
              "y_norm": 0.5228327986969059,
              "canvas_width": 1272,
              "canvas_height": 543.2000122070312
            },
            {
              "word": "orange",
              "id": "word-10",
              "x_px": 391.20003509521484,
              "y_px": 295.1999969482422,
              "x_norm": 0.32372719477187173,
              "y_norm": 0.5712074105216663,
              "canvas_width": 1272,
              "canvas_height": 543.2000122070312
            },
            {
              "word": "mango",
              "id": "word-11",
              "x_px": 395.20003509521484,
              "y_px": 323.2000274658203,
              "x_norm": 0.3268682315409582,
              "y_norm": 0.6253870348164378,
              "canvas_width": 1272,
              "canvas_height": 543.2000122070312
            },
            {
              "word": "tiffins",
              "id": "word-12",
              "x_px": 595.2000350952148,
              "y_px": 104.18748474121094,
              "x_norm": 0.4888054250180758,
              "y_norm": 0.20160116525416888,
              "canvas_width": 1272,
              "canvas_height": 543.2000122070312
            },
            {
              "word": "tiffins",
              "id": "word-12",
              "x_px": 595.2000350952148,
              "y_px": 104.18748474121094,
              "x_norm": 0.4888054250180758,
              "y_norm": 0.20160116525416888,
              "canvas_width": 1272,
              "canvas_height": 543.2000122070312
            },
            {
              "word": "chocolate",
              "id": "word-13",
              "x_px": 102.20000457763672,
              "y_px": 336.2000274658203,
              "x_norm": 0.08578233768561752,
              "y_norm": 0.6505418329653131,
              "canvas_width": 1272,
              "canvas_height": 543.2000122070312
            },
            {
              "word": "tea",
              "id": "word-14",
              "x_px": 144.20000457763672,
              "y_px": 81.1875,
              "x_norm": 0.1168782520853614,
              "y_norm": 0.15709655190090926,
              "canvas_width": 1272,
              "canvas_height": 543.2000122070312
            },
            {
              "word": "tea",
              "id": "word-14",
              "x_px": 712.8000106811523,
              "y_px": 97.78749084472656,
              "x_norm": 0.577744914633382,
              "y_norm": 0.18921727643723818,
              "canvas_width": 1272,
              "canvas_height": 543.2000122070312
            },
            {
              "word": "coffe",
              "id": "word-15",
              "x_px": 707.2000350952148,
              "y_px": 128.18748474121094,
              "x_norm": 0.5787293532354056,
              "y_norm": 0.2480407926059388,
              "canvas_width": 1272,
              "canvas_height": 543.2000122070312
            }
          ],
          "viewport_width": 1536,
          "viewport_height": 776,
          "device_pixel_ratio": 1.25
        },
        {
          "view_history": [
            {
              "page_index": 0,
              "viewing_time": 4695
            }
          ],
          "rt": 4696,
          "trial_type": "instructions",
          "trial_index": 19,
          "time_elapsed": 817173,
          "internal_node_id": "0.0-19.0-0.0",
          "subject": 10255
        },
        {
          "rt": 13425,
          "response": {
            "strategies": "",
            "Hi_Read": "4",
            "Hi_Write": "4",
            "En_Read": "5",
            "En_Write": "5"
          },
          "typeoftrial": "insights",
          "trial_type": "survey-html-form",
          "trial_index": 20,
          "time_elapsed": 830601,
          "internal_node_id": "0.0-19.0-1.0",
          "subject": 10255,
          "strategies": "",
          "Hi_Read": "4",
          "Hi_Write": "4",
          "En_Read": "5",
          "En_Write": "5"
        },
        {
          "rt": 24379,
          "response": {
            "first_language": "Telugu",
            "language_count": "3",
            "languages_buffer": "Telugu||Hindi||English"
          },
          "typeoftrial": "demographics",
          "trial_type": "survey-html-form",
          "trial_index": 21,
          "time_elapsed": 854983,
          "internal_node_id": "0.0-19.0-2.0",
          "subject": 10255,
          "first_language": "Telugu",
          "language_count": "3",
          "languages_list": [
            "Telugu",
            "Hindi",
            "English"
          ]
        },
        {
          "rt": 8704,
          "response": {
            "confidence_0": "5",
            "confidence_1": "4",
            "confidence_2": "5"
          },
          "typeoftrial": "demographics",
          "trial_type": "survey-html-form",
          "trial_index": 22,
          "time_elapsed": 863689,
          "internal_node_id": "0.0-19.0-3.0",
          "subject": 10255,
          "language_confidence": {
            "Telugu": "5",
            "Hindi": "4",
            "English": "5"
          }
        },
        {
          "rt": 13614,
          "response": {
            "acquisition_0": "1",
            "acquisition_1": "2",
            "acquisition_2": "2"
          },
          "typeoftrial": "demographics",
          "trial_type": "survey-html-form",
          "trial_index": 23,
          "time_elapsed": 877306,
          "internal_node_id": "0.0-19.0-4.0",
          "subject": 10255,
          "language_acquisition": {
            "Telugu": "1",
            "Hindi": "2",
            "English": "2"
          }
        },
        {
          "rt": 5299,
          "response": {
            "state_ut": "Andhra Pradesh"
          },
          "typeoftrial": "demographics",
          "trial_type": "survey-html-form",
          "trial_index": 24,
          "time_elapsed": 882608,
          "internal_node_id": "0.0-19.0-6.0",
          "subject": 10255,
          "state_ut": "Andhra Pradesh"
        },
        {
          "rt": 17129,
          "response": {
            "gender": "Male",
            "age": "27",
            "education": "20"
          },
          "typeoftrial": "demographics",
          "trial_type": "survey-html-form",
          "trial_index": 25,
          "time_elapsed": 899738,
          "internal_node_id": "0.0-19.0-7.0",
          "subject": 10255,
          "age": "27",
          "gender": "Male",
          "education": "20"
        },
        {
          "rt": 4747,
          "response": {
            "dominant_hand": "Right",
            "alert_time": "Morning"
          },
          "question_order": [
            0,
            1
          ],
          "typeoftrial": "demographics",
          "trial_type": "survey-multi-choice",
          "trial_index": 26,
          "time_elapsed": 904489,
          "internal_node_id": "0.0-19.0-8.0",
          "subject": 10255,
          "dominant_hand": "Right",
          "alert_time": "Morning"
        },
        {
          "rt": 7378,
          "response": {
            "additional_info": "no"
          },
          "typeoftrial": "demographics",
          "trial_type": "survey-text",
          "trial_index": 27,
          "time_elapsed": 911871,
          "internal_node_id": "0.0-19.0-9.0",
          "subject": 10255,
          "other_info": "no"
        }
      ],
      "user_agent": "Mozilla/5.0 (Windows NT 10.0; Win64; x64) AppleWebKit/537.36 (KHTML, like Gecko) Chrome/144.0.0.0 Safari/537.36",
      "url": "https://potatopudding-ssks.github.io/fluency-spam/",
      "created_at": {
        "_seconds": 1770295025,
        "_nanoseconds": 942000000
      }
    },
    "2kupFqWyVgUTsqisMsI7": {
      "subject_id": 95712,
      "data": [
        {
          "trial_type": "call-function",
          "trial_index": 0,
          "time_elapsed": 15,
          "internal_node_id": "0.0-0.0",
          "subject": 95712
        },
        {
          "rt": 1343,
          "stimulus": "\n                    <p style=\"font-size:20px;\"> इस प्रयोग में भाग लेने के लिए धन्यवाद!</p>\n                    <p style=\"font-size:20px;\"> ‎</p>\n                    <p style=\"font-size:22px;\"> <strong>इस प्रयोग में दो चरण हैं:</strong></p>\n                    <p style=\"font-size:18px;\"> <u>प्रथम चरण में,</u>, आपको एक कैटेगरी का नाम दिखाया जाएगा।\n                    <p style=\"font-size:18px;\"> आपको निर्धारित समय सीमा के भीतर उस कैटेगरी से संबंधित जितने संभव हो सकें, उतने शब्द टाइप करने होंगे। </p>\n                    <p style=\"font-size:18px;\"> <u>दूसरे चरण में</u>, आप पहले टाइप किए गए हर शब्द को ऐसे संगठित करे </p>\n                    <p style=\"font-size:18px;\"> जिससे समान अर्थ वाले शब्द एक-दुसरे के ज्यादा करीब हो।</p>\n                    <p style=\"font-size:18px;\"> इस एक्सपेरिमेंट में सिर्फ़ 3 \"ट्रायल\" होंगे, इसलिए कृपया जितना हो सके उतना सटीकता बनाए रखें।\n                    <p style=\"font-size:18px;\"> टाइप करते समय अथवा वस्तुओं को संगठित करते समय,शीघ्रता की आवश्यकता नहीं है,सटीकता सबसे महत्वपूर्ण है।</p>\n                    <p style=\"font-size:20px;\"> ‎</p>\n                    <p style=\"font-size:18px;\"> शुरू करने से पहले, हम आपको एक्सपेरिमेंट लेआउट से परिचित कराना चाहते हैं। हम आपको इसके बारे में बताएंगे।</p>\n                    <p style=\"font-size:18px;\"> मुख्य कार्य आरंभ करने से पहले, आपको एक अभ्यास सत्र दिया जाएगा, जिसमें विस्तृत निर्देश दिये गये है|</p>\n                    <p style=\"font-size:18px;\"> जब आप शुरू करने के लिए तैयार हों, <strong>\"कंटिन्यू\" दबाएँ।</strong></p>\n                ",
          "response": 0,
          "typeoftrial": "instructions",
          "subject": 95712,
          "trial_type": "html-button-response",
          "trial_index": 2,
          "time_elapsed": 104961,
          "internal_node_id": "0.0-2.0"
        },
        {
          "rt": 1311,
          "stimulus": "\n                    <p style=\"font-size:22px;\"><strong>आप अभी एक वर्बल फ्लुएंसी टास्क करने वाले हैं।</strong></p>\n                    <p style=\"font-size:17px;\"> इस टास्क में आपको एक कैटेगरी का नाम दिखाया जाएगा (जैसे, फर्नीचर)।</p>\n                    <p style=\"font-size:17px;\"> आपका काम है 3 मिनट में उस कैटेगरी से जुड़ी जितनी ज़्यादा चीज़ें आप सोच सकते हैं, उन्हें टाइप करना।</p>\n                    <p style=\"font-size:17px;\"> आपको यह काम तीन अलग-अलग डोमेन पर तीन बार करना होगा।</p> \n                    <p style=\"font-size:17px;\"> हर शब्द टाइप करने के बाद, अगला शब्द टाइप करने के लिए <strong>ENTER</strong> दबाएँ।</p>\n                    <p style=\"font-size:17px;\"> जब टाइमर खत्म हो जाएगा, तो आप अपने आप अगले टास्क पर चले जाएंगे।</p>\n                    <p style=\"font-size:17px;\"> जब आप तैयार हों, तो प्रैक्टिस करने के लिए <strong>शुरू दबाएँ!</strong></p>\n                    <p style=\"font-size:17px;\"> प्रैक्टिस ट्रायल के लिए आपको 1 मिनट दिया जाएगा, लेकिन याद रखें कि असली टास्क के लिए आपको 3 मिनट दिए जाएंगे।</p> \n                ",
          "response": 0,
          "typeoftrial": "instructions",
          "subject": 95712,
          "trial_type": "html-button-response",
          "trial_index": 3,
          "time_elapsed": 106274,
          "internal_node_id": "0.0-3.0"
        },
        {
          "rt": null,
          "stimulus": "\n                        <div id = \"timer-box\"></div>\n                        <div id = \"response-input-box\">\n                        <p style = \"font-size:30px;\">आप <strong>फर्नीचर</strong> से जुड़ी जितनी ज़्यादा चीज़ों के नाम बता सकते हैं, बताएं।</p>\n                        <div id = \"responses\">\n                            <input type = \"text\" class = \"furniture-practice-response active\" autofocus />\n                        </div>\n                        <p id = \"below-input-text\" style = \"font-size: 14px; margin-top: 10px; color: gray; text-align: left;\"> हर शब्द के बाद <strong>enter</strong> दबाएँ!</p>\n                        </div>\n                        <style>\n                        #responses {\n                            position: relative;\n                            width: 300px;\n                            height: 40px; \n                        }\n\n                        .furniture-practice-response {\n                            position: absolute;\n                            top: 0;\n                            left: 0;\n                            width: 100%;\n                            font-size: 20px;\n                            padding: 5px;\n                            box-sizing: border-box;\n                            opacity: 0.5;\n                        } \n\n                        .furniture-practice-response.active {\n                            opacity: 1;\n                            z-index: 999;\n                        }\n                        </style>\n                    ",
          "response": null,
          "task": "VFT",
          "domain": "furniture-practice",
          "subject": 95712,
          "trial_type": "html-keyboard-response",
          "trial_index": 4,
          "time_elapsed": 166275,
          "internal_node_id": "0.0-4.0-0.0",
          "tagged_responses": "[{\"response\":\"टेबल\",\"tag\":1},{\"response\":\"पलंग\",\"tag\":2},{\"response\":\"ख़ुर्शी\",\"tag\":3},{\"response\":\"सोफा\",\"tag\":4},{\"response\":\"अलमारी\",\"tag\":5}]",
          "response_times": "[5623,10863,10916,17148,9270]"
        },
        {
          "rt": 1994,
          "stimulus": "\n                    <p style=\"font-size:22px;\"> <strong>अब, आप एक स्पेशियल अरेंजमेंट टास्क शुरू करेंगे।</strong></p>\n                    <p style=\"font-size:17px;\"> इस टास्क में, आपको उन शब्दों का सेट दिखाया जाएगा जो आपने पिछले वर्बल फ्लुएंसी टास्क में टाइप किए थे।</p>\n                    <p style=\"font-size:17px;\"> हमें यह जानना है कि आपके अनुसार ये शब्द एक-दूसरे से कितने मिलते-जुलते हैं। आपका काम है हर शब्द को इस तरह मूव करना</p>\n                    <p style=\"font-size:17px;\"> कि समान शब्द एक-दूसरे के करीब आ जाएं। यानी, आपको उन्हें स्पेस में इस तरह रखना चाहिए</p>\n                    <p style=\"font-size:17px;\"> कि हर जोड़ी के बीच की दूरी यह दर्शाए कि वे एक-दूसरे से कितने समान हैं।</p>\n                    <p style=\"font-size:17px;\"> (स्पेस में पास होने का मतलब है ज़्यादा समानता, और दूर होने का मतलब है ज़्यादा असमानता)</p>\n                    <p style=\"font-size:17px;\"> शब्द एक बॉक्स के ऊपरी बाएँ कोने में एक-एक करके दिखाई देंगे। आप बस उन्हें</p>\n                    <p style=\"font-size:17px;\"> क्लिक और ड्रैग करके हिला सकते हैं। यदि शब्द समान लगते हैं, तो उन्हें पास-पास रखें।</p>\n                    <p style=\"font-size:17px;\"> यदि वे अलग लगते हैं, तो उन्हें एक-दूसरे से दूर रखें। आप यह प्रक्रिया तीन अलग-अलग डोमेन पर</p> \n                    <p style=\"font-size:17px;\"> तीन बार करेंगे, जो उन शब्दों पर आधारित होगी जो आपने संबंधित वर्बल फ्लुएंसी टास्क में टाइप किए थे। </p>\n                    <p style=\"font-size:17px;\"> हर शब्द को ड्रैग करने के बाद, अगला शब्द आएगा। आप पहले से रखे गए शब्दों को फिर से व्यवस्थित कर सकते हैं।</p>\n                    <p style=\"font-size:17px;\"> ध्यान दें, ट्रायल पूरा करने के लिए, <u>सभी आइटम्स</u> को \"एक्टिव एरीना\" (बीच वाले बड़े बॉक्स) में ले जाना ज़रूरी है। </p>\n                    <p style=\"font-size:17px;\"> जब आप व्यवस्थित कर लें, तो स्क्रीन के नीचे दिए गए छोटे कंटिन्यू बटन पर क्लिक करें।</p>\n                    <p style=\"font-size:5px;\"> ‎</p>\n                    <p style=\"font-size:17px;\"> चलिए अपना प्रैक्टिस राउंड जारी रखते हैं!</p>\n                    <p style=\"font-size:17px;\"> जब आप तैयार हों, तो <strong>शुरू दबाएँ।</strong></p>\n                ",
          "response": 0,
          "typeoftrial": "instructions",
          "subject": 95712,
          "trial_type": "html-button-response",
          "trial_index": 5,
          "time_elapsed": 168271,
          "internal_node_id": "0.0-5.0"
        },
        {
          "rt": 51462,
          "stimulus": "\n                            <p style=\"font-size:20px;\">हर शब्द को नीचे दिए गए ड्रॉप बॉक्स में इस आधार पर व्यवस्थित करें कि वे एक-दूसरे से कितने संबंधित हैं।</p> \n                            <p style=\"font-size:18px;\"><strong>हर शब्द</strong> को मूव करने के बाद एक नया शब्द दिखाई देगा।</p>\n                            <p style=\"font-size:17px;\"> जब आप स्पेस व्यवस्थित कर लें, तो स्क्रीन के नीचे दिए गए छोटे कंटिन्यू बटन पर क्लिक करें।</p>\n                            <div id=\"word-drop-area\" style=\"\n                                margin: 40px auto;\n                                width: 80vw;\n                                max-width: 1400px;\n                                height: 55vh;\n                                min-height: 500px;\n                                max-height: 750px;\n                                border: 2px solid #aaa;\n                                padding: 20px;\n                                position: relative;\n                            \"></div>\n\n\n                            <p style=\"font-size:14px; color: gray;\">याद रखें, ज़रूरत पड़ने पर पहले रखे गए शब्दों को फिर से व्यवस्थित किया जा सकता है!</p>\n                            <style>       \n                                .draggable {\n                                    display: inline-block;\n                                    background: #eef;\n                                    padding: 4px 8px;\n                                    border: 1px solid #aaa;\n                                    border-radius: 4px;\n                                    cursor: grab;\n                                    font-size: 14px;\n                                    line-height: 1.2;\n                                    margin-bottom: 4px;\n                                }\n\n                            </style>    \n                        ",
          "response": 0,
          "task": "SpAM",
          "domain": "furniture-practice",
          "subject": 95712,
          "trial_type": "html-button-response",
          "trial_index": 6,
          "time_elapsed": 219733,
          "internal_node_id": "0.0-6.0",
          "droppedwords": [
            {
              "word": "टेबल",
              "id": "word-1",
              "x_px": 22,
              "y_px": 22,
              "x_norm": 0.028591851435772832,
              "y_norm": 0.04148203849127568,
              "canvas_width": 812,
              "canvas_height": 557.1500244140625
            },
            {
              "word": "टेबल",
              "id": "word-1",
              "x_px": 108,
              "y_px": 483.0000305175781,
              "x_norm": 0.14035999795743026,
              "y_norm": 0.9107193571462501,
              "canvas_width": 812,
              "canvas_height": 557.1500244140625
            },
            {
              "word": "टेबल",
              "id": "word-1",
              "x_px": 80,
              "y_px": 426.0000305175781,
              "x_norm": 0.10397036885735575,
              "y_norm": 0.8032431665097631,
              "canvas_width": 812,
              "canvas_height": 557.1500244140625
            },
            {
              "word": "पलंग",
              "id": "word-2",
              "x_px": 130,
              "y_px": 426.0000305175781,
              "x_norm": 0.16912402316538258,
              "y_norm": 0.8032431665097631,
              "canvas_width": 812,
              "canvas_height": 557.1500244140625
            },
            {
              "word": "ख़ुर्शी",
              "id": "word-3",
              "x_px": 32,
              "y_px": 427.0000305175781,
              "x_norm": 0.04159085034293008,
              "y_norm": 0.805128713713912,
              "canvas_width": 812,
              "canvas_height": 557.1500244140625
            },
            {
              "word": "सोफा",
              "id": "word-4",
              "x_px": 229,
              "y_px": 443.0000305175781,
              "x_norm": 0.2987735958869673,
              "y_norm": 0.8352974689802943,
              "canvas_width": 812,
              "canvas_height": 557.1500244140625
            },
            {
              "word": "पलंग",
              "id": "word-2",
              "x_px": 285,
              "y_px": 442.0000305175781,
              "x_norm": 0.37077189693949253,
              "y_norm": 0.8334119217761454,
              "canvas_width": 812,
              "canvas_height": 557.1500244140625
            },
            {
              "word": "सोफा",
              "id": "word-4",
              "x_px": 340,
              "y_px": 442.0000305175781,
              "x_norm": 0.44359398515968945,
              "y_norm": 0.8334119217761454,
              "canvas_width": 812,
              "canvas_height": 557.1500244140625
            },
            {
              "word": "अलमारी",
              "id": "word-5",
              "x_px": 323,
              "y_px": 405.0000305175781,
              "x_norm": 0.429273910729615,
              "y_norm": 0.7636466752226363,
              "canvas_width": 812,
              "canvas_height": 557.1500244140625
            },
            {
              "word": "टेबल",
              "id": "word-1",
              "x_px": 236,
              "y_px": 443.0000305175781,
              "x_norm": 0.3067125881291995,
              "y_norm": 0.8352974689802943,
              "canvas_width": 812,
              "canvas_height": 557.1500244140625
            },
            {
              "word": "ख़ुर्शी",
              "id": "word-3",
              "x_px": 155,
              "y_px": 444.0000305175781,
              "x_norm": 0.2014556813485676,
              "y_norm": 0.8371830161844432,
              "canvas_width": 812,
              "canvas_height": 557.1500244140625
            },
            {
              "word": "ख़ुर्शी",
              "id": "word-3",
              "x_px": 189,
              "y_px": 442.0000305175781,
              "x_norm": 0.2456459598379308,
              "y_norm": 0.8334119217761454,
              "canvas_width": 812,
              "canvas_height": 557.1500244140625
            },
            {
              "word": "सोफा",
              "id": "word-4",
              "x_px": 137,
              "y_px": 442.0000305175781,
              "x_norm": 0.1787422822555219,
              "y_norm": 0.8334119217761454,
              "canvas_width": 812,
              "canvas_height": 557.1500244140625
            },
            {
              "word": "अलमारी",
              "id": "word-5",
              "x_px": 336,
              "y_px": 442.0000305175781,
              "x_norm": 0.44655118887043543,
              "y_norm": 0.8334119217761454,
              "canvas_width": 812,
              "canvas_height": 557.1500244140625
            }
          ],
          "viewport_width": 960,
          "viewport_height": 933,
          "device_pixel_ratio": 1
        },
        {
          "rt": 1777,
          "stimulus": "\n                    <p style=\"font-size:20px;\">आपने प्रैक्टिस राउंड पूरा कर लिया है!</p>\n                    <p style=\"font-size:18px;\"> अब आप असली टास्क शुरू करेंगे, जिसमें अलग-अलग कैटेगरी के तीन राउंड होंगे।</p>\n                    <p style=\"font-size:18px;\"> फिर से, आपका पहला काम समय सीमा के भीतर दी गई कैटेगरी से जुड़े ज़्यादा से ज़्यादा शब्द टाइप करना है।</p>\n                    <p style=\"font-size:18px;\"> उसके बाद, आपको उन टाइप किए गए शब्दों को दिए गए बॉक्स में इस आधार पर व्यवस्थित करना होगा कि वे एक-दूसरे से कितने संबंधित हैं।</p>\n                    <p style=\"font-size:10px;\"> ‎</p>\n                    <p style=\"font-size:18px;\"> जब आप तैयार हों, तो वर्बल फ्लुएंसी टास्क शुरू करने के लिए <strong>शुरू दबाएँ</strong>।</p>\n                ",
          "response": 0,
          "typeoftrial": "instructions",
          "subject": 95712,
          "trial_type": "html-button-response",
          "trial_index": 7,
          "time_elapsed": 221512,
          "internal_node_id": "0.0-7.0"
        },
        {
          "rt": null,
          "stimulus": "\n                        <div id = \"timer-box\"></div>\n                        <div id = \"response-input-box\">\n                        <p style = \"font-size:30px;\">आप <strong>रंगों</strong> के जितने ज़्यादा नाम बता सकते हैं, बताएं।</p>\n                        <div id = \"responses\">\n                            <input type = \"text\" class = \"colours-response active\" autofocus />\n                        </div>\n                        <p id = \"below-input-text\" style = \"font-size: 14px; margin-top: 10px; color: gray; text-align: left;\"> हर शब्द के बाद <strong>enter</strong> दबाएँ!</p>\n                        </div>\n                        <style>\n                        #responses {\n                            position: relative;\n                            width: 300px;\n                            height: 40px; \n                        }\n\n                        .colours-response {\n                            position: absolute;\n                            top: 0;\n                            left: 0;\n                            width: 100%;\n                            font-size: 20px;\n                            padding: 5px;\n                            box-sizing: border-box;\n                            opacity: 0.5;\n                        } \n\n                        .colours-response.active {\n                            opacity: 1;\n                            z-index: 999;\n                        }\n                        </style>\n                    ",
          "response": null,
          "task": "VFT",
          "domain": "colours",
          "subject": 95712,
          "trial_type": "html-keyboard-response",
          "trial_index": 8,
          "time_elapsed": 281513,
          "internal_node_id": "0.0-8.0-0.0",
          "tagged_responses": "[{\"response\":\"लाल\",\"tag\":1},{\"response\":\"नीला\",\"tag\":2},{\"response\":\"पीला\",\"tag\":3},{\"response\":\"हरा\",\"tag\":4},{\"response\":\"भगवा\",\"tag\":5},{\"response\":\"नीला\",\"tag\":6},{\"response\":\"गुलाबी\",\"tag\":7}]",
          "response_times": "[8649,7806,7872,9607,8012,6640,8142]"
        },
        {
          "rt": 2046,
          "stimulus": "\n                    <p style=\"font-size:20px;\"> <strong>आप स्पेशियल अरेंजमेंट टास्क की ओर बढ़ रहे हैं।</strong></p>\n                    <p style=\"font-size:16px;\"> याद दिलाने के लिए, इस टास्क में आपको शब्दों का एक सेट दिखाया जाएगा।</p>\n                    <p style=\"font-size:16px;\"> हमें यह जानना है कि आपको ये शब्द एक-दूसरे से कितने समान लगते हैं।</p>\n                    <p style=\"font-size:16px;\"> समानता दिखाने के लिए, आपको हर शब्द को इस तरह मूव करना होगा</p> \n                    <p style=\"font-size:16px;\"> कि समान शब्द एक-दूसरे के करीब आ जाएं।</p>\n                    <p style=\"font-size:16px;\"> यदि शब्द समान लगते हैं, तो उन्हें पास-पास रखें; यदि वे अलग लगते हैं,</p>\n                    <p style=\"font-size:16px;\"> तो उन्हें एक-दूसरे से दूर रखें।</p>\n                    <p style=\"font-size:10px;\"> ‎</p>\n                    <p style=\"font-size:18px;\"> शुरू करने के लिए <strong>शुरू</strong> दबाएँ।</p>\n                ",
          "response": 0,
          "typeoftrial": "instructions",
          "subject": 95712,
          "trial_type": "html-button-response",
          "trial_index": 9,
          "time_elapsed": 283562,
          "internal_node_id": "0.0-9.0"
        },
        {
          "rt": 68436,
          "stimulus": "\n                            <p style=\"font-size:20px;\">हर शब्द को नीचे दिए गए ड्रॉप बॉक्स में इस आधार पर व्यवस्थित करें कि वे एक-दूसरे से कितने संबंधित हैं।</p> \n                            <p style=\"font-size:18px;\"><strong>हर शब्द</strong> को मूव करने के बाद एक नया शब्द दिखाई देगा।</p>\n                            <p style=\"font-size:17px;\"> जब आप स्पेस व्यवस्थित कर लें, तो स्क्रीन के नीचे दिए गए छोटे कंटिन्यू बटन पर क्लिक करें।</p>\n                            <div id=\"word-drop-area\" style=\"\n                                margin: 40px auto;\n                                width: 80vw;\n                                max-width: 1400px;\n                                height: 55vh;\n                                min-height: 500px;\n                                max-height: 750px;\n                                border: 2px solid #aaa;\n                                padding: 20px;\n                                position: relative;\n                            \"></div>\n\n\n                            <p style=\"font-size:14px; color: gray;\">याद रखें, ज़रूरत पड़ने पर पहले रखे गए शब्दों को फिर से व्यवस्थित किया जा सकता है!</p>\n                            <style>       \n                                .draggable {\n                                    display: inline-block;\n                                    background: #eef;\n                                    padding: 4px 8px;\n                                    border: 1px solid #aaa;\n                                    border-radius: 4px;\n                                    cursor: grab;\n                                    font-size: 14px;\n                                    line-height: 1.2;\n                                    margin-bottom: 4px;\n                                }\n\n                            </style>    \n                        ",
          "response": 0,
          "task": "SpAM",
          "domain": "colours",
          "subject": 95712,
          "trial_type": "html-button-response",
          "trial_index": 10,
          "time_elapsed": 351998,
          "internal_node_id": "0.0-10.0",
          "droppedwords": [
            {
              "word": "लाल",
              "id": "word-1",
              "x_px": 286,
              "y_px": 479.0000305175781,
              "x_norm": 0.37077049295060566,
              "y_norm": 0.9031771683296546,
              "canvas_width": 812,
              "canvas_height": 557.1500244140625
            },
            {
              "word": "नीला",
              "id": "word-2",
              "x_px": 350,
              "y_px": 437.0000305175781,
              "x_norm": 0.4548605136531229,
              "y_norm": 0.823984185755401,
              "canvas_width": 812,
              "canvas_height": 557.1500244140625
            },
            {
              "word": "नीला",
              "id": "word-2",
              "x_px": 340,
              "y_px": 476.0000305175781,
              "x_norm": 0.4418644989773194,
              "y_norm": 0.8975205267172078,
              "canvas_width": 812,
              "canvas_height": 557.1500244140625
            },
            {
              "word": "पीला",
              "id": "word-3",
              "x_px": 247,
              "y_px": 532.1499938964844,
              "x_norm": 0.32107805669390677,
              "y_norm": 1.0033939331793673,
              "canvas_width": 812,
              "canvas_height": 557.1500244140625
            },
            {
              "word": "पीला",
              "id": "word-3",
              "x_px": 227,
              "y_px": 477.1499938964844,
              "x_norm": 0.29507983347982525,
              "y_norm": 0.8996888369511781,
              "canvas_width": 812,
              "canvas_height": 557.1500244140625
            },
            {
              "word": "हरा",
              "id": "word-4",
              "x_px": 178,
              "y_px": 480.0000305175781,
              "x_norm": 0.22902727830537287,
              "y_norm": 0.9050627155338034,
              "canvas_width": 812,
              "canvas_height": 557.1500244140625
            },
            {
              "word": "भगवा",
              "id": "word-5",
              "x_px": 126,
              "y_px": 408.0000305175781,
              "x_norm": 0.16473818264302534,
              "y_norm": 0.769303316835083,
              "canvas_width": 812,
              "canvas_height": 557.1500244140625
            },
            {
              "word": "भगवा",
              "id": "word-5",
              "x_px": 124,
              "y_px": 477.0000305175781,
              "x_norm": 0.16212329085504082,
              "y_norm": 0.8994060739213567,
              "canvas_width": 812,
              "canvas_height": 557.1500244140625
            },
            {
              "word": "नीला",
              "id": "word-6",
              "x_px": 73,
              "y_px": 480.0000305175781,
              "x_norm": 0.09487090713336563,
              "y_norm": 0.9050627155338034,
              "canvas_width": 812,
              "canvas_height": 557.1500244140625
            },
            {
              "word": "गुलाबी",
              "id": "word-7",
              "x_px": 394,
              "y_px": 474.0000305175781,
              "x_norm": 0.5175018018538381,
              "y_norm": 0.89374943230891,
              "canvas_width": 812,
              "canvas_height": 557.1500244140625
            },
            {
              "word": "लाल",
              "id": "word-1",
              "x_px": 118,
              "y_px": 435.0000305175781,
              "x_norm": 0.15297523835024987,
              "y_norm": 0.8202130913471032,
              "canvas_width": 812,
              "canvas_height": 557.1500244140625
            },
            {
              "word": "भगवा",
              "id": "word-5",
              "x_px": 163,
              "y_px": 436.0000305175781,
              "x_norm": 0.21311368072073913,
              "y_norm": 0.8220986385512521,
              "canvas_width": 812,
              "canvas_height": 557.1500244140625
            },
            {
              "word": "पीला",
              "id": "word-3",
              "x_px": 213,
              "y_px": 435.1499938964844,
              "x_norm": 0.2768810772299682,
              "y_norm": 0.8204958543769245,
              "canvas_width": 812,
              "canvas_height": 557.1500244140625
            },
            {
              "word": "नीला",
              "id": "word-2",
              "x_px": 262,
              "y_px": 436.0000305175781,
              "x_norm": 0.340495584506052,
              "y_norm": 0.8220986385512521,
              "canvas_width": 812,
              "canvas_height": 557.1500244140625
            },
            {
              "word": "नीला",
              "id": "word-6",
              "x_px": 310,
              "y_px": 439.0000305175781,
              "x_norm": 0.40287645494990887,
              "y_norm": 0.8277552801636987,
              "canvas_width": 812,
              "canvas_height": 557.1500244140625
            },
            {
              "word": "हरा",
              "id": "word-4",
              "x_px": 178,
              "y_px": 480.0000305175781,
              "x_norm": 0.22902727830537287,
              "y_norm": 0.9050627155338034,
              "canvas_width": 812,
              "canvas_height": 557.1500244140625
            },
            {
              "word": "नीला",
              "id": "word-6",
              "x_px": 310,
              "y_px": 436.0000305175781,
              "x_norm": 0.40287645494990887,
              "y_norm": 0.8220986385512521,
              "canvas_width": 812,
              "canvas_height": 557.1500244140625
            },
            {
              "word": "हरा",
              "id": "word-4",
              "x_px": 361,
              "y_px": 436.0000305175781,
              "x_norm": 0.4644879071249416,
              "y_norm": 0.8220986385512521,
              "canvas_width": 812,
              "canvas_height": 557.1500244140625
            },
            {
              "word": "गुलाबी",
              "id": "word-7",
              "x_px": 401,
              "y_px": 437.0000305175781,
              "x_norm": 0.526695996303018,
              "y_norm": 0.823984185755401,
              "canvas_width": 812,
              "canvas_height": 557.1500244140625
            }
          ],
          "viewport_width": 960,
          "viewport_height": 933,
          "device_pixel_ratio": 1
        },
        {
          "rt": 1750,
          "stimulus": "\n                    <p style=\"font-size:18px;\"> <strong>अब आप अगली कैटेगरी पर जाएंगे।</strong></p>\n                    <p style=\"font-size:16px;\"> याद दिलाने के लिए, इस टास्क में आपको बड़े अक्षरों में दी गई कैटेगरी</p> \n                    <p style=\"font-size:16px;\"> से जुड़े जितने भी शब्द याद आएं, उन सभी को टाइप करना है।</p>\n                    <p style=\"font-size:18px;\"> शुरू करने के लिए <strong>शुरू</strong> दबाएँ।</p>\n                ",
          "response": 0,
          "typeoftrial": "instructions",
          "subject": 95712,
          "trial_type": "html-button-response",
          "trial_index": 11,
          "time_elapsed": 353749,
          "internal_node_id": "0.0-11.0"
        },
        {
          "rt": null,
          "stimulus": "\n                        <div id = \"timer-box\"></div>\n                        <div id = \"response-input-box\">\n                        <p style = \"font-size:30px;\">आप <strong>खाद्य पदार्थों</strong> के जितने ज़्यादा नाम बता सकते हैं, बताएं।</p>\n                        <div id = \"responses\">\n                            <input type = \"text\" class = \"foods-response active\" autofocus />\n                        </div>\n                        <p id = \"below-input-text\" style = \"font-size: 14px; margin-top: 10px; color: gray; text-align: left;\"> हर शब्द के बाद <strong>enter</strong> दबाएँ!</p>\n                        </div>\n                        <style>\n                        #responses {\n                            position: relative;\n                            width: 300px;\n                            height: 40px; \n                        }\n\n                        .foods-response {\n                            position: absolute;\n                            top: 0;\n                            left: 0;\n                            width: 100%;\n                            font-size: 20px;\n                            padding: 5px;\n                            box-sizing: border-box;\n                            opacity: 0.5;\n                        } \n\n                        .foods-response.active {\n                            opacity: 1;\n                            z-index: 999;\n                        }\n                        </style>\n                    ",
          "response": null,
          "task": "VFT",
          "domain": "foods",
          "subject": 95712,
          "trial_type": "html-keyboard-response",
          "trial_index": 12,
          "time_elapsed": 413750,
          "internal_node_id": "0.0-12.0-0.0",
          "tagged_responses": "[{\"response\":\"केला\",\"tag\":1},{\"response\":\"पोहा\",\"tag\":2},{\"response\":\"सेब\",\"tag\":3},{\"response\":\"डोसा\",\"tag\":4},{\"response\":\"समोसा\",\"tag\":5},{\"response\":\"कचोरी\",\"tag\":6},{\"response\":\"मोशाम्बी\",\"tag\":7}]",
          "response_times": "[9992,8169,6410,9644,7617,8163,9451]"
        },
        {
          "rt": 1387,
          "stimulus": "\n                    <p style=\"font-size:20px;\"> <strong>आप स्पेशियल अरेंजमेंट टास्क की ओर बढ़ रहे हैं।</strong></p>\n                    <p style=\"font-size:16px;\"> याद दिलाने के लिए, इस टास्क में आपको शब्दों का एक सेट दिखाया जाएगा।</p>\n                    <p style=\"font-size:16px;\"> हमें यह जानना है कि आपको ये शब्द एक-दूसरे से कितने समान लगते हैं।</p>\n                    <p style=\"font-size:16px;\"> समानता दिखाने के लिए, आपको हर शब्द को इस तरह मूव करना होगा</p> \n                    <p style=\"font-size:16px;\"> कि समान शब्द एक-दूसरे के करीब आ जाएं।</p>\n                    <p style=\"font-size:16px;\"> यदि शब्द समान लगते हैं, तो उन्हें पास-पास रखें; यदि वे अलग लगते हैं,</p>\n                    <p style=\"font-size:16px;\"> तो उन्हें एक-दूसरे से दूर रखें।</p>\n                    <p style=\"font-size:10px;\"> ‎</p>\n                    <p style=\"font-size:18px;\"> शुरू करने के लिए <strong>शुरू</strong> दबाएँ।</p>\n                ",
          "response": 0,
